square,loc1,loc2,corrAns,trials1.thisRepN,trials1.thisTrialN,trials1.thisN,trials1.thisIndex,trials2.thisRepN,trials2.thisTrialN,trials2.thisN,trials2.thisIndex,trials3.thisRepN,trials3.thisTrialN,trials3.thisN,trials3.thisIndex,instr1.started,instr1.stopped,keyResp1.keys,keyResp1.rt,keyResp1.started,keyResp1.stopped,fix1.started,fix1.stopped,trial1Grid.started,trial1Grid.stopped,trial1Square.started,trial1Square.stopped,trial1Fix.started,trial1Fix.stopped,trial1Resp.keys,trial1Resp.corr,trial1Resp.started,trial1Resp.stopped,instr2.started,instr2.stopped,keyResp2.keys,keyResp2.rt,keyResp2.started,keyResp2.stopped,fix2.started,fix2.stopped,trial2Grid.started,trial2Grid.stopped,trial2Square.started,trial2Square.stopped,trial2Fix.started,trial2Fix.stopped,trial2Resp.keys,trial2Resp.corr,trial2Resp.started,trial2Resp.stopped,instr3.started,instr3.stopped,keyResp3.keys,keyResp3.rt,keyResp3.started,keyResp3.stopped,fix3.started,fix3.stopped,trial3Grid.started,trial3Grid.stopped,trial3Square.started,trial3Square.stopped,trial3Fix.started,trial3Fix.stopped,trial3Resp.keys,trial3Resp.corr,trial3Resp.started,trial3Resp.stopped,thanks.started,thanks.stopped,participant,session,date,expName,psychopyVersion,frameRate,
,,,,,,,,,,,,,,,,14.34061680000741,None,space,0.728738300036639,14.34061680000741,None,,,,,,,,,,,,,,,,,,,,,,,,,,,,,,,,,,,,,,,,,,,,,,,,,,,a,001,2020_May_25_1519,n-back-testing,2020.1.3,60.13829400978895,
6,0.2,0.0,None,0,0,0,0,,,,,,,,,,,,,,,15.085640600067563,None,16.21114720008336,None,16.21114720008336,17.2186354000587,17.185246900073253,None,None,1,16.21114720008336,None,,,,,,,,,,,,,,,,,,,,,,,,,,,,,,,,,,,,,,,a,001,2020_May_25_1519,n-back-testing,2020.1.3,60.13829400978895,
6,0.2,0.0,space,0,1,1,1,,,,,,,,,,,,,,,,,18.101820600102656,None,18.101820600102656,19.101479700068012,19.084773400099948,20.084693200071342,None,0,18.101820600102656,None,,,,,,,,,,,,,,,,,,,,,,,,,,,,,,,,,,,,,,,a,001,2020_May_25_1519,n-back-testing,2020.1.3,60.13829400978895,
2,0.0,0.2,None,0,2,2,2,,,,,,,,,,,,,,,,,20.101698200101964,None,20.101698200101964,21.10104110010434,21.08431340008974,22.08418550004717,None,1,20.101698200101964,None,,,,,,,,,,,,,,,,,,,,,,,,,,,,,,,,,,,,,,,a,001,2020_May_25_1519,n-back-testing,2020.1.3,60.13829400978895,
9,0.2,-0.2,None,0,3,3,3,,,,,,,,,,,,,,,,,22.10093810001854,None,22.10093810001854,23.10067420010455,23.083983900025487,24.08368290006183,None,1,22.10093810001854,None,,,,,,,,,,,,,,,,,,,,,,,,,,,,,,,,,,,,,,,a,001,2020_May_25_1519,n-back-testing,2020.1.3,60.13829400978895,
9,0.2,-0.2,space,0,4,4,4,,,,,,,,,,,,,,,,,24.100353500107303,None,24.100353500107303,25.100155000109226,25.083454600069672,26.083484500064515,None,0,24.100353500107303,None,,,,,,,,,,,,,,,,,,,,,,,,,,,,,,,,,,,,,,,a,001,2020_May_25_1519,n-back-testing,2020.1.3,60.13829400978895,
6,0.2,0.0,None,0,5,5,5,,,,,,,,,,,,,,,,,26.099913400015794,None,26.099913400015794,27.09961800009478,27.08295320009347,28.082744300016202,None,1,26.099913400015794,None,,,,,,,,,,,,,,,,,,,,,,,,,,,,,,,,,,,,,,,a,001,2020_May_25_1519,n-back-testing,2020.1.3,60.13829400978895,
4,-0.2,0.0,None,0,6,6,6,,,,,,,,,,,,,,,,,28.099391900002956,None,28.099391900002956,29.099115899996832,29.08247320004739,30.08334710006602,None,1,28.099391900002956,None,,,,,,,,,,,,,,,,,,,,,,,,,,,,,,,,,,,,,,,a,001,2020_May_25_1519,n-back-testing,2020.1.3,60.13829400978895,
3,0.2,0.2,None,0,7,7,7,,,,,,,,,,,,,,,,,30.098906800034456,None,30.098906800034456,31.098757700063288,31.08201040001586,32.08177810010966,None,1,30.098906800034456,None,,,,,,,,,,,,,,,,,,,,,,,,,,,,,,,,,,,,,,,a,001,2020_May_25_1519,n-back-testing,2020.1.3,60.13829400978895,
3,0.2,0.2,space,0,8,8,8,,,,,,,,,,,,,,,,,32.09837940009311,None,32.09837940009311,33.09821590001229,33.081515500089154,34.08123420004267,None,0,32.09837940009311,None,,,,,,,,,,,,,,,,,,,,,,,,,,,,,,,,,,,,,,,a,001,2020_May_25_1519,n-back-testing,2020.1.3,60.13829400978895,
8,0.0,-0.2,None,0,9,9,9,,,,,,,,,,,,,,,,,34.09822700009681,None,34.09822700009681,35.09797930007335,35.08104240009561,36.08073750010226,None,1,34.09822700009681,None,,,,,,,,,,,,,,,,,,,,,,,,,,,,,,,,,,,,,,,a,001,2020_May_25_1519,n-back-testing,2020.1.3,60.13829400978895,
1,-0.2,0.2,None,0,10,10,10,,,,,,,,,,,,,,,,,36.097476500086486,None,36.097476500086486,37.09716950007714,37.08049610001035,38.08015040005557,None,1,36.097476500086486,None,,,,,,,,,,,,,,,,,,,,,,,,,,,,,,,,,,,,,,,a,001,2020_May_25_1519,n-back-testing,2020.1.3,60.13829400978895,
2,0.0,0.2,None,0,11,11,11,,,,,,,,,,,,,,,,,38.09687710006256,None,38.09687710006256,39.09659690002445,39.08001390006393,40.0798673001118,None,1,38.09687710006256,None,,,,,,,,,,,,,,,,,,,,,,,,,,,,,,,,,,,,,,,a,001,2020_May_25_1519,n-back-testing,2020.1.3,60.13829400978895,
4,-0.2,0.0,None,0,12,12,12,,,,,,,,,,,,,,,,,40.09642150008585,None,40.09642150008585,41.096112000057474,41.07942910003476,42.079173600068316,None,1,40.09642150008585,None,,,,,,,,,,,,,,,,,,,,,,,,,,,,,,,,,,,,,,,a,001,2020_May_25_1519,n-back-testing,2020.1.3,60.13829400978895,
4,-0.2,0.0,space,0,13,13,13,,,,,,,,,,,,,,,,,42.096261400030926,None,42.096261400030926,43.09604140010197,43.078953800024465,44.080914700054564,None,0,42.096261400030926,None,,,,,,,,,,,,,,,,,,,,,,,,,,,,,,,,,,,,,,,a,001,2020_May_25_1519,n-back-testing,2020.1.3,60.13829400978895,
8,0.0,-0.2,None,0,14,14,14,,,,,,,,,,,,,,,,,44.09625350008719,None,44.09625350008719,45.09512330009602,45.0786430001026,46.07846500002779,None,1,44.09625350008719,None,,,,,,,,,,,,,,,,,,,,,,,,,,,,,,,,,,,,,,,a,001,2020_May_25_1519,n-back-testing,2020.1.3,60.13829400978895,
5,0.0,0.0,None,0,15,15,15,,,,,,,,,,,,,,,,,46.09477730002254,None,46.09477730002254,47.09453590004705,47.07790280005429,48.07767530006822,None,1,46.09477730002254,None,,,,,,,,,,,,,,,,,,,,,,,,,,,,,,,,,,,,,,,a,001,2020_May_25_1519,n-back-testing,2020.1.3,60.13829400978895,
5,0.0,0.0,space,0,16,16,16,,,,,,,,,,,,,,,,,48.09431180008687,None,48.09431180008687,49.09403210005257,49.07746590010356,50.07795679999981,None,0,48.09431180008687,None,,,,,,,,,,,,,,,,,,,,,,,,,,,,,,,,,,,,,,,a,001,2020_May_25_1519,n-back-testing,2020.1.3,60.13829400978895,
1,-0.2,0.2,None,0,17,17,17,,,,,,,,,,,,,,,,,50.096143800066784,None,50.096143800066784,51.110342400032096,51.0770847001113,52.07681260001846,None,1,50.096143800066784,None,,,,,,,,,,,,,,,,,,,,,,,,,,,,,,,,,,,,,,,a,001,2020_May_25_1519,n-back-testing,2020.1.3,60.13829400978895,
3,0.2,0.2,None,0,18,18,18,,,,,,,,,,,,,,,,,52.0935839000158,None,52.0935839000158,53.09315810003318,53.07685800001491,54.07618770003319,None,1,52.0935839000158,None,,,,,,,,,,,,,,,,,,,,,,,,,,,,,,,,,,,,,,,a,001,2020_May_25_1519,n-back-testing,2020.1.3,60.13829400978895,
6,0.2,0.0,None,0,19,19,19,,,,,,,,,,,,,,,,,54.09296100004576,None,54.09296100004576,55.09296999999788,55.07610500010196,56.075957700028084,None,1,54.09296100004576,None,,,,,,,,,,,,,,,,,,,,,,,,,,,,,,,,,,,,,,,a,001,2020_May_25_1519,n-back-testing,2020.1.3,60.13829400978895,
1,-0.2,0.2,None,0,20,20,20,,,,,,,,,,,,,,,,,56.09271850006189,None,56.09271850006189,57.09216160001233,57.07546090008691,58.075230100075714,None,1,56.09271850006189,None,,,,,,,,,,,,,,,,,,,,,,,,,,,,,,,,,,,,,,,a,001,2020_May_25_1519,n-back-testing,2020.1.3,60.13829400978895,
1,-0.2,0.2,space,0,21,21,21,,,,,,,,,,,,,,,,,58.091946300002746,None,58.091946300002746,59.09174110007007,59.07488920004107,60.07521230005659,None,0,58.091946300002746,None,,,,,,,,,,,,,,,,,,,,,,,,,,,,,,,,,,,,,,,a,001,2020_May_25_1519,n-back-testing,2020.1.3,60.13829400978895,
1,-0.2,0.2,space,0,22,22,22,,,,,,,,,,,,,,,,,60.09176780004054,None,60.09176780004054,61.091191600076854,61.07441910007037,62.074172700056806,None,0,60.09176780004054,None,,,,,,,,,,,,,,,,,,,,,,,,,,,,,,,,,,,,,,,a,001,2020_May_25_1519,n-back-testing,2020.1.3,60.13829400978895,
3,0.2,0.2,None,0,23,23,23,,,,,,,,,,,,,,,,,62.091034800047055,None,62.091034800047055,63.09069720003754,63.07403390004765,64.07372230000328,None,1,62.091034800047055,None,,,,,,,,,,,,,,,,,,,,,,,,,,,,,,,,,,,,,,,a,001,2020_May_25_1519,n-back-testing,2020.1.3,60.13829400978895,
2,0.0,0.2,None,0,24,24,24,,,,,,,,,,,,,,,,,64.0904360000277,64.0904360000277,64.0904360000277,65.09072520001791,65.07454490009695,66.0737642000895,None,1,64.0904360000277,64.0904360000277,,,,,,,,,,,,,,,,,,,,,,,,,,,,,,,,,,,,,,,a,001,2020_May_25_1519,n-back-testing,2020.1.3,60.13829400978895,
1,-0.2,0.2,None,0,25,25,25,,,,,,,,,,,,,,,,,66.08980930002872,None,66.08980930002872,67.08967080002185,67.07321810000576,68.0727329000365,None,1,66.08980930002872,None,,,,,,,,,,,,,,,,,,,,,,,,,,,,,,,,,,,,,,,a,001,2020_May_25_1519,n-back-testing,2020.1.3,60.13829400978895,
7,-0.2,-0.2,None,0,26,26,26,,,,,,,,,,,,,,,,,68.08939510001801,68.08939510001801,68.08939510001801,69.0891558000585,69.07252270006575,70.07252450007945,None,1,68.08939510001801,68.08939510001801,,,,,,,,,,,,,,,,,,,,,,,,,,,,,,,,,,,,,,,a,001,2020_May_25_1519,n-back-testing,2020.1.3,60.13829400978895,
7,-0.2,-0.2,space,0,27,27,27,,,,,,,,,,,,,,,,,70.0888280000072,70.0888280000072,70.0888280000072,71.08866490004584,71.07199240010232,72.07178590004332,None,0,70.0888280000072,70.0888280000072,,,,,,,,,,,,,,,,,,,,,,,,,,,,,,,,,,,,,,,a,001,2020_May_25_1519,n-back-testing,2020.1.3,60.13829400978895,
2,0.0,0.2,None,0,28,28,28,,,,,,,,,,,,,,,,,72.08836990001146,72.08836990001146,72.08836990001146,73.08829640003387,73.07173980004154,74.07164100010414,None,1,72.08836990001146,72.08836990001146,,,,,,,,,,,,,,,,,,,,,,,,,,,,,,,,,,,,,,,a,001,2020_May_25_1519,n-back-testing,2020.1.3,60.13829400978895,
6,0.2,0.0,None,0,29,29,29,,,,,,,,,,,,,,,,,74.08787960000336,74.08787960000336,74.08787960000336,75.0876733000623,75.07104560011066,76.07206530007534,None,1,74.08787960000336,74.08787960000336,,,,,,,,,,,,,,,,,,,,,,,,,,,,,,,,,,,,,,,a,001,2020_May_25_1519,n-back-testing,2020.1.3,60.13829400978895,
,,,,,,,,,,,,,,,,,,,,,,,,,,,,,,,,,,76.09046500001568,None,space,9.498851599986665,76.09046500001568,None,,,,,,,,,,,,,,,,,,,,,,,,,,,,,,,,,a,001,2020_May_25_1519,n-back-testing,2020.1.3,60.13829400978895,
5,0.0,0.0,None,,,,,0,0,0,0,,,,,,,,,,,,,,,,,,,,,,,,,,,,,85.61920410010498,None,86.65414070000406,None,86.65414070000406,87.66779600002337,87.63451010000426,None,None,1,86.65414070000406,None,,,,,,,,,,,,,,,,,,,,,a,001,2020_May_25_1519,n-back-testing,2020.1.3,60.13829400978895,
2,0.0,0.2,None,,,,,0,1,1,1,,,,,,,,,,,,,,,,,,,,,,,,,,,,,,,88.63432650000323,None,88.63432650000323,89.63395850011148,89.61809920007363,90.61708560003899,None,1,88.63432650000323,None,,,,,,,,,,,,,,,,,,,,,a,001,2020_May_25_1519,n-back-testing,2020.1.3,60.13829400978895,
6,0.2,0.0,None,,,,,0,2,2,2,,,,,,,,,,,,,,,,,,,,,,,,,,,,,,,90.63373290002346,None,90.63373290002346,91.63380040007178,91.61710180004593,92.61653640004806,None,1,90.63373290002346,None,,,,,,,,,,,,,,,,,,,,,a,001,2020_May_25_1519,n-back-testing,2020.1.3,60.13829400978895,
9,0.2,-0.2,None,,,,,0,3,3,3,,,,,,,,,,,,,,,,,,,,,,,,,,,,,,,92.63325040007476,None,92.63325040007476,93.63299990002997,93.6163552000653,94.61606800009031,None,1,92.63325040007476,None,,,,,,,,,,,,,,,,,,,,,a,001,2020_May_25_1519,n-back-testing,2020.1.3,60.13829400978895,
3,0.2,0.2,None,,,,,0,4,4,4,,,,,,,,,,,,,,,,,,,,,,,,,,,,,,,94.63286430004518,None,94.63286430004518,95.63286050001625,95.61583160003647,96.61559220007621,None,1,94.63286430004518,None,,,,,,,,,,,,,,,,,,,,,a,001,2020_May_25_1519,n-back-testing,2020.1.3,60.13829400978895,
9,0.2,-0.2,space,,,,,0,5,5,5,,,,,,,,,,,,,,,,,,,,,,,,,,,,,,,96.63229100010358,None,96.63229100010358,97.63204070006032,97.6153454000596,98.61508090002462,None,0,96.63229100010358,None,,,,,,,,,,,,,,,,,,,,,a,001,2020_May_25_1519,n-back-testing,2020.1.3,60.13829400978895,
7,-0.2,-0.2,None,,,,,0,6,6,6,,,,,,,,,,,,,,,,,,,,,,,,,,,,,,,98.63178400008474,None,98.63178400008474,99.63153530005366,99.61491140001453,100.6146119000623,None,1,98.63178400008474,None,,,,,,,,,,,,,,,,,,,,,a,001,2020_May_25_1519,n-back-testing,2020.1.3,60.13829400978895,
1,-0.2,0.2,None,,,,,0,7,7,7,,,,,,,,,,,,,,,,,,,,,,,,,,,,,,,100.63131100009196,None,100.63131100009196,101.63120490009896,101.61527930002194,None,None,1,100.63131100009196,None,,,,,,,,,,,,,,,,,,,,,a,001,2020_May_25_1519,n-back-testing,2020.1.3,60.13829400978895,
5,0.0,0.0,None,,,,,0,8,8,8,,,,,,,,,,,,,,,,,,,,,,,,,,,,,,,102.6309515000321,None,102.6309515000321,103.63051190006081,103.61396010010503,104.6136564000044,None,1,102.6309515000321,None,,,,,,,,,,,,,,,,,,,,,a,001,2020_May_25_1519,n-back-testing,2020.1.3,60.13829400978895,
7,-0.2,-0.2,None,,,,,0,9,9,9,,,,,,,,,,,,,,,,,,,,,,,,,,,,,,,104.63059620000422,None,104.63059620000422,105.63026050000917,105.61339980002958,106.61310570000205,None,1,104.63059620000422,None,,,,,,,,,,,,,,,,,,,,,a,001,2020_May_25_1519,n-back-testing,2020.1.3,60.13829400978895,
5,0.0,0.0,space,,,,,0,10,10,10,,,,,,,,,,,,,,,,,,,,,,,,,,,,,,,106.62980990007054,None,106.62980990007054,107.62959560006857,107.61283620004542,108.61261360009667,None,0,106.62980990007054,None,,,,,,,,,,,,,,,,,,,,,a,001,2020_May_25_1519,n-back-testing,2020.1.3,60.13829400978895,
6,0.2,0.0,None,,,,,0,11,11,11,,,,,,,,,,,,,,,,,,,,,,,,,,,,,,,108.62933710007928,None,108.62933710007928,109.62909120006952,109.61240220000036,110.6130981000606,None,1,108.62933710007928,None,,,,,,,,,,,,,,,,,,,,,a,001,2020_May_25_1519,n-back-testing,2020.1.3,60.13829400978895,
3,0.2,0.2,None,,,,,0,12,12,12,,,,,,,,,,,,,,,,,,,,,,,,,,,,,,,110.62894700001925,None,110.62894700001925,111.62861940008588,111.61197250010446,112.611672500032,None,1,110.62894700001925,None,,,,,,,,,,,,,,,,,,,,,a,001,2020_May_25_1519,n-back-testing,2020.1.3,60.13829400978895,
6,0.2,0.0,space,,,,,0,13,13,13,,,,,,,,,,,,,,,,,,,,,,,,,,,,,,,112.62831390008796,None,112.62831390008796,113.62809570005629,113.611441200017,114.61114740010817,None,0,112.62831390008796,None,,,,,,,,,,,,,,,,,,,,,a,001,2020_May_25_1519,n-back-testing,2020.1.3,60.13829400978895,
8,0.0,-0.2,None,,,,,0,14,14,14,,,,,,,,,,,,,,,,,,,,,,,,,,,,,,,114.62786940007936,None,114.62786940007936,115.62760240002535,115.61083820008207,116.61088100005873,None,1,114.62786940007936,None,,,,,,,,,,,,,,,,,,,,,a,001,2020_May_25_1519,n-back-testing,2020.1.3,60.13829400978895,
9,0.2,-0.2,None,,,,,0,15,15,15,,,,,,,,,,,,,,,,,,,,,,,,,,,,,,,116.62745880009606,None,116.62745880009606,117.6271032000659,117.6104270000942,118.61015020008199,None,1,116.62745880009606,None,,,,,,,,,,,,,,,,,,,,,a,001,2020_May_25_1519,n-back-testing,2020.1.3,60.13829400978895,
9,0.2,-0.2,None,,,,,0,16,16,16,,,,,,,,,,,,,,,,,,,,,,,,,,,,,,,118.62687170004938,None,118.62687170004938,119.62662200001068,119.60992410010658,120.61008070001844,None,1,118.62687170004938,None,,,,,,,,,,,,,,,,,,,,,a,001,2020_May_25_1519,n-back-testing,2020.1.3,60.13829400978895,
1,-0.2,0.2,None,,,,,0,17,17,17,,,,,,,,,,,,,,,,,,,,,,,,,,,,,,,120.6269301000284,None,120.6269301000284,121.62668870005291,121.61007740010973,122.60910470003728,None,1,120.6269301000284,None,,,,,,,,,,,,,,,,,,,,,a,001,2020_May_25_1519,n-back-testing,2020.1.3,60.13829400978895,
3,0.2,0.2,None,,,,,0,18,18,18,,,,,,,,,,,,,,,,,,,,,,,,,,,,,,,122.6258797000628,None,122.6258797000628,123.62555580004118,123.60887660004664,124.60859890002757,None,1,122.6258797000628,None,,,,,,,,,,,,,,,,,,,,,a,001,2020_May_25_1519,n-back-testing,2020.1.3,60.13829400978895,
5,0.0,0.0,None,,,,,0,19,19,19,,,,,,,,,,,,,,,,,,,,,,,,,,,,,,,124.62525740009733,None,124.62525740009733,125.62520090001635,125.60831900010817,126.6081458000699,None,1,124.62525740009733,None,,,,,,,,,,,,,,,,,,,,,a,001,2020_May_25_1519,n-back-testing,2020.1.3,60.13829400978895,
3,0.2,0.2,space,,,,,0,20,20,20,,,,,,,,,,,,,,,,,,,,,,,,,,,,,,,126.62478000007104,None,126.62478000007104,127.62474940007087,127.60781630000565,128.6076053000288,None,0,126.62478000007104,None,,,,,,,,,,,,,,,,,,,,,a,001,2020_May_25_1519,n-back-testing,2020.1.3,60.13829400978895,
4,-0.2,0.0,None,,,,,0,21,21,21,,,,,,,,,,,,,,,,,,,,,,,,,,,,,,,128.62437810003757,None,128.62437810003757,129.62406380008906,129.60740540002007,130.6071360000642,None,1,128.62437810003757,None,,,,,,,,,,,,,,,,,,,,,a,001,2020_May_25_1519,n-back-testing,2020.1.3,60.13829400978895,
7,-0.2,-0.2,None,,,,,0,22,22,22,,,,,,,,,,,,,,,,,,,,,,,,,,,,,,,130.62389410007745,None,130.62389410007745,131.6237584000919,131.60865670000203,None,None,1,130.62389410007745,None,,,,,,,,,,,,,,,,,,,,,a,001,2020_May_25_1519,n-back-testing,2020.1.3,60.13829400978895,
4,-0.2,0.0,space,,,,,0,23,23,23,,,,,,,,,,,,,,,,,,,,,,,,,,,,,,,132.62332340003923,None,132.62332340003923,133.62307580001652,133.60631699999794,134.6065647000214,None,0,132.62332340003923,None,,,,,,,,,,,,,,,,,,,,,a,001,2020_May_25_1519,n-back-testing,2020.1.3,60.13829400978895,
4,-0.2,0.0,None,,,,,0,24,24,24,,,,,,,,,,,,,,,,,,,,,,,,,,,,,,,134.62276560009923,None,134.62276560009923,135.62255850003567,135.60585600009654,136.60561020008754,None,1,134.62276560009923,None,,,,,,,,,,,,,,,,,,,,,a,001,2020_May_25_1519,n-back-testing,2020.1.3,60.13829400978895,
5,0.0,0.0,None,,,,,0,25,25,25,,,,,,,,,,,,,,,,,,,,,,,,,,,,,,,136.6223667000886,136.6223667000886,136.6223667000886,137.62211980007123,137.60551020002458,138.60510650009383,None,1,136.6223667000886,136.6223667000886,,,,,,,,,,,,,,,,,,,,,a,001,2020_May_25_1519,n-back-testing,2020.1.3,60.13829400978895,
2,0.0,0.2,None,,,,,0,26,26,26,,,,,,,,,,,,,,,,,,,,,,,,,,,,,,,138.6218896000646,138.6218896000646,138.6218896000646,139.62165690003894,139.60508270002902,140.60461230005603,None,1,138.6218896000646,138.6218896000646,,,,,,,,,,,,,,,,,,,,,a,001,2020_May_25_1519,n-back-testing,2020.1.3,60.13829400978895,
6,0.2,0.0,None,,,,,0,27,27,27,,,,,,,,,,,,,,,,,,,,,,,,,,,,,,,140.62138080003206,140.62138080003206,140.62138080003206,141.62113860005047,141.60435410006903,142.6041444001021,None,1,140.62138080003206,140.62138080003206,,,,,,,,,,,,,,,,,,,,,a,001,2020_May_25_1519,n-back-testing,2020.1.3,60.13829400978895,
7,-0.2,-0.2,None,,,,,0,28,28,28,,,,,,,,,,,,,,,,,,,,,,,,,,,,,,,142.62092270003632,142.62092270003632,142.62092270003632,143.62066150002647,143.60394290008117,144.60419650003314,None,1,142.62092270003632,142.62092270003632,,,,,,,,,,,,,,,,,,,,,a,001,2020_May_25_1519,n-back-testing,2020.1.3,60.13829400978895,
6,0.2,0.0,space,,,,,0,29,29,29,,,,,,,,,,,,,,,,,,,,,,,,,,,,,,,144.62033530010376,144.62033530010376,144.62033530010376,145.62011590006296,145.603408300085,146.6032970000524,None,0,144.62033530010376,144.62033530010376,,,,,,,,,,,,,,,,,,,,,a,001,2020_May_25_1519,n-back-testing,2020.1.3,60.13829400978895,
,,,,,,,,,,,,,,,,,,,,,,,,,,,,,,,,,,,,,,,,,,,,,,,,,,,,146.62007530010305,None,space,2.8656020999187604,146.62007530010305,None,,,,,,,,,,,,,,,a,001,2020_May_25_1519,n-back-testing,2020.1.3,60.13829400978895,
4,-0.2,0.0,None,,,,,,,,,0,0,0,0,,,,,,,,,,,,,,,,,,,,,,,,,,,,,,,,,,,,,,,,,,,149.50235150009394,None,150.5226520000724,None,150.5226520000724,151.5352484000614,151.50206240010448,152.5017995000817,None,1,150.5226520000724,None,,,a,001,2020_May_25_1519,n-back-testing,2020.1.3,60.13829400978895,
2,0.0,0.2,None,,,,,,,,,0,1,1,1,,,,,,,,,,,,,,,,,,,,,,,,,,,,,,,,,,,,,,,,,,,,,152.51830070000142,None,152.51830070000142,153.51805410010274,153.50148840004113,154.50180430000182,None,1,152.51830070000142,None,,,a,001,2020_May_25_1519,n-back-testing,2020.1.3,60.13829400978895,
9,0.2,-0.2,None,,,,,,,,,0,2,2,2,,,,,,,,,,,,,,,,,,,,,,,,,,,,,,,,,,,,,,,,,,,,,154.51772470003925,None,154.51772470003925,155.51753810001537,155.50111960002687,156.50074060005136,None,1,154.51772470003925,None,,,a,001,2020_May_25_1519,n-back-testing,2020.1.3,60.13829400978895,
4,-0.2,0.0,space,,,,,,,,,0,3,3,3,,,,,,,,,,,,,,,,,,,,,,,,,,,,,,,,,,,,,,,,,,,,,156.5175215000054,None,156.5175215000054,157.51700800005347,157.50052800006233,158.50026360002812,None,0,156.5175215000054,None,,,a,001,2020_May_25_1519,n-back-testing,2020.1.3,60.13829400978895,
3,0.2,0.2,None,,,,,,,,,0,4,4,4,,,,,,,,,,,,,,,,,,,,,,,,,,,,,,,,,,,,,,,,,,,,,158.5167986000888,None,158.5167986000888,159.51651340001263,159.5000727000879,160.4996797000058,None,1,158.5167986000888,None,,,a,001,2020_May_25_1519,n-back-testing,2020.1.3,60.13829400978895,
9,0.2,-0.2,space,,,,,,,,,0,5,5,5,,,,,,,,,,,,,,,,,,,,,,,,,,,,,,,,,,,,,,,,,,,,,160.51639590004925,None,160.51639590004925,161.51649350009393,161.49968240002636,162.49914349999744,None,0,160.51639590004925,None,,,a,001,2020_May_25_1519,n-back-testing,2020.1.3,60.13829400978895,
1,-0.2,0.2,None,,,,,,,,,0,6,6,6,,,,,,,,,,,,,,,,,,,,,,,,,,,,,,,,,,,,,,,,,,,,,162.51582460000645,None,162.51582460000645,163.5155945000006,163.49893050000537,164.49867550004274,None,1,162.51582460000645,None,,,a,001,2020_May_25_1519,n-back-testing,2020.1.3,60.13829400978895,
1,-0.2,0.2,None,,,,,,,,,0,7,7,7,,,,,,,,,,,,,,,,,,,,,,,,,,,,,,,,,,,,,,,,,,,,,164.51531860011164,None,164.51531860011164,165.51505190005992,165.4984720000066,166.49814670009073,None,1,164.51531860011164,None,,,a,001,2020_May_25_1519,n-back-testing,2020.1.3,60.13829400978895,
6,0.2,0.0,None,,,,,,,,,0,8,8,8,,,,,,,,,,,,,,,,,,,,,,,,,,,,,,,,,,,,,,,,,,,,,166.51558530004695,None,166.51558530004695,167.53125410003122,167.49791950010695,168.49768900009803,None,1,166.51558530004695,None,,,a,001,2020_May_25_1519,n-back-testing,2020.1.3,60.13829400978895,
1,-0.2,0.2,space,,,,,,,,,0,9,9,9,,,,,,,,,,,,,,,,,,,,,,,,,,,,,,,,,,,,,,,,,,,,,168.51435370009858,None,168.51435370009858,169.51415350008756,169.49742810009047,170.49723200011067,None,0,168.51435370009858,None,,,a,001,2020_May_25_1519,n-back-testing,2020.1.3,60.13829400978895,
5,0.0,0.0,None,,,,,,,,,0,10,10,10,,,,,,,,,,,,,,,,,,,,,,,,,,,,,,,,,,,,,,,,,,,,,170.5138688000152,None,170.5138688000152,171.51363920001313,171.49693740007933,172.49667690007482,None,1,170.5138688000152,None,,,a,001,2020_May_25_1519,n-back-testing,2020.1.3,60.13829400978895,
6,0.2,0.0,space,,,,,,,,,0,11,11,11,,,,,,,,,,,,,,,,,,,,,,,,,,,,,,,,,,,,,,,,,,,,,172.5133371000411,None,172.5133371000411,173.51318140001968,173.49635940010194,174.49618180003017,None,0,172.5133371000411,None,,,a,001,2020_May_25_1519,n-back-testing,2020.1.3,60.13829400978895,
3,0.2,0.2,None,,,,,,,,,0,12,12,12,,,,,,,,,,,,,,,,,,,,,,,,,,,,,,,,,,,,,,,,,,,,,174.512861300027,None,174.512861300027,175.51262010005303,175.4959119000705,176.49571560008917,None,1,174.512861300027,None,,,a,001,2020_May_25_1519,n-back-testing,2020.1.3,60.13829400978895,
1,-0.2,0.2,None,,,,,,,,,0,13,13,13,,,,,,,,,,,,,,,,,,,,,,,,,,,,,,,,,,,,,,,,,,,,,176.5123625000706,None,176.5123625000706,177.5120934000006,177.49544080009218,178.4951238000067,None,1,176.5123625000706,None,,,a,001,2020_May_25_1519,n-back-testing,2020.1.3,60.13829400978895,
7,-0.2,-0.2,None,,,,,,,,,0,14,14,14,,,,,,,,,,,,,,,,,,,,,,,,,,,,,,,,,,,,,,,,,,,,,178.51187950000167,None,178.51187950000167,179.51161590008996,179.4949541001115,180.4946193000069,None,1,178.51187950000167,None,,,a,001,2020_May_25_1519,n-back-testing,2020.1.3,60.13829400978895,
9,0.2,-0.2,None,,,,,,,,,0,15,15,15,,,,,,,,,,,,,,,,,,,,,,,,,,,,,,,,,,,,,,,,,,,,,180.51208340004086,None,180.51208340004086,181.52774520008825,181.49438940000255,182.4942263000412,None,1,180.51208340004086,None,,,a,001,2020_May_25_1519,n-back-testing,2020.1.3,60.13829400978895,
1,-0.2,0.2,space,,,,,,,,,0,16,16,16,,,,,,,,,,,,,,,,,,,,,,,,,,,,,,,,,,,,,,,,,,,,,182.51089970010798,None,182.51089970010798,183.51088499999605,183.49395160004497,184.49367810005788,None,0,182.51089970010798,None,,,a,001,2020_May_25_1519,n-back-testing,2020.1.3,60.13829400978895,
3,0.2,0.2,None,,,,,,,,,0,17,17,17,,,,,,,,,,,,,,,,,,,,,,,,,,,,,,,,,,,,,,,,,,,,,184.5104876999976,None,184.5104876999976,185.51009900006466,185.49411260010675,186.49317600007635,None,1,184.5104876999976,None,,,a,001,2020_May_25_1519,n-back-testing,2020.1.3,60.13829400978895,
7,-0.2,-0.2,None,,,,,,,,,0,18,18,18,,,,,,,,,,,,,,,,,,,,,,,,,,,,,,,,,,,,,,,,,,,,,186.50986650004052,None,186.50986650004052,187.5095478000585,187.49293580011,188.4926887000911,None,1,186.50986650004052,None,,,a,001,2020_May_25_1519,n-back-testing,2020.1.3,60.13829400978895,
5,0.0,0.0,None,,,,,,,,,0,19,19,19,,,,,,,,,,,,,,,,,,,,,,,,,,,,,,,,,,,,,,,,,,,,,188.5093703001039,None,188.5093703001039,189.50912420009263,189.49242030002642,190.49213470006362,None,1,188.5093703001039,None,,,a,001,2020_May_25_1519,n-back-testing,2020.1.3,60.13829400978895,
3,0.2,0.2,space,,,,,,,,,0,20,20,20,,,,,,,,,,,,,,,,,,,,,,,,,,,,,,,,,,,,,,,,,,,,,190.50873260002118,None,190.50873260002118,191.50852260005195,191.49199100001715,192.4917006000178,None,0,190.50873260002118,None,,,a,001,2020_May_25_1519,n-back-testing,2020.1.3,60.13829400978895,
8,0.0,-0.2,None,,,,,,,,,0,21,21,21,,,,,,,,,,,,,,,,,,,,,,,,,,,,,,,,,,,,,,,,,,,,,192.50831410009414,None,192.50831410009414,193.50807630002964,193.49148450000212,194.49143240007106,None,1,192.50831410009414,None,,,a,001,2020_May_25_1519,n-back-testing,2020.1.3,60.13829400978895,
7,-0.2,-0.2,None,,,,,,,,,0,22,22,22,,,,,,,,,,,,,,,,,,,,,,,,,,,,,,,,,,,,,,,,,,,,,194.50783650006633,None,194.50783650006633,195.50759190006647,195.49099240009673,196.49068420007825,None,1,194.50783650006633,None,,,a,001,2020_May_25_1519,n-back-testing,2020.1.3,60.13829400978895,
4,-0.2,0.0,None,,,,,,,,,0,23,23,23,,,,,,,,,,,,,,,,,,,,,,,,,,,,,,,,,,,,,,,,,,,,,196.5073362000985,None,196.5073362000985,197.50710840011016,197.49048190005124,198.49025440006517,None,1,196.5073362000985,None,,,a,001,2020_May_25_1519,n-back-testing,2020.1.3,60.13829400978895,
8,0.0,-0.2,space,,,,,,,,,0,24,24,24,,,,,,,,,,,,,,,,,,,,,,,,,,,,,,,,,,,,,,,,,,,,,198.50683830003254,None,198.50683830003254,199.5066076000221,199.489915400045,200.49093290010933,None,0,198.50683830003254,None,,,a,001,2020_May_25_1519,n-back-testing,2020.1.3,60.13829400978895,
5,0.0,0.0,None,,,,,,,,,0,25,25,25,,,,,,,,,,,,,,,,,,,,,,,,,,,,,,,,,,,,,,,,,,,,,200.5083328000037,None,200.5083328000037,201.5227936001029,201.48948440002277,202.48919780005235,None,1,200.5083328000037,None,,,a,001,2020_May_25_1519,n-back-testing,2020.1.3,60.13829400978895,
2,0.0,0.2,None,,,,,,,,,0,26,26,26,,,,,,,,,,,,,,,,,,,,,,,,,,,,,,,,,,,,,,,,,,,,,202.52260820008814,None,202.52260820008814,203.52236810000613,203.50556130008772,204.50586730008945,None,1,202.52260820008814,None,,,a,001,2020_May_25_1519,n-back-testing,2020.1.3,60.13829400978895,
6,0.2,0.0,None,,,,,,,,,0,27,27,27,,,,,,,,,,,,,,,,,,,,,,,,,,,,,,,,,,,,,,,,,,,,,204.5220813000342,None,204.5220813000342,205.52225870010443,205.505072100088,206.5047844001092,None,1,204.5220813000342,None,,,a,001,2020_May_25_1519,n-back-testing,2020.1.3,60.13829400978895,
5,0.0,0.0,space,,,,,,,,,0,28,28,28,,,,,,,,,,,,,,,,,,,,,,,,,,,,,,,,,,,,,,,,,,,,,206.52161450008862,None,206.52161450008862,207.52139220002573,207.50461040006485,208.50455170008354,None,0,206.52161450008862,None,,,a,001,2020_May_25_1519,n-back-testing,2020.1.3,60.13829400978895,
2,0.0,0.2,space,,,,,,,,,0,29,29,29,,,,,,,,,,,,,,,,,,,,,,,,,,,,,,,,,,,,,,,,,,,,,208.5211183000356,None,208.5211183000356,209.52084620005917,209.50412870000582,210.50522700010333,None,0,208.5211183000356,None,,,a,001,2020_May_25_1519,n-back-testing,2020.1.3,60.13829400978895,
,,,,,,,,,,,,,,,,,,,,,,,,,,,,,,,,,,,,,,,,,,,,,,,,,,,,,,,,,,,,,,,,,,,,,,210.52061100001447,None,,,,,,,
